left_arrow,right_arrow,empty,middle,corrAns,condition,blockfile,dummy_trial.thisRepN,dummy_trial.thisTrialN,dummy_trial.thisN,dummy_trial.thisIndex,block.thisRepN,block.thisTrialN,block.thisN,block.thisIndex,trials.thisRepN,trials.thisTrialN,trials.thisN,trials.thisIndex,test_trials.thisRepN,test_trials.thisTrialN,test_trials.thisN,test_trials.thisIndex,blockn.thisRepN,blockn.thisTrialN,blockn.thisN,blockn.thisIndex,thisRow.t,notes,JS_code.started,JS_code.stopped,instruction_1.started,wecomle_resp.started,instruction_1.stopped,instruction_2.started,text.started,image_8.started,image_9.started,image_10.started,sound_2.started,key_resp_10.started,instruction_2.stopped,key_resp_10.keys,key_resp_10.rt,key_resp_10.duration,instruction_2_1.started,image_11.started,image_12.started,image_13.started,text_5.started,sound_3.started,key_resp_5.started,instruction_2_1.stopped,key_resp_5.keys,key_resp_5.rt,key_resp_5.duration,instruction_2_2.started,image_14.started,image_15.started,image_16.started,text_6.started,sound_4.started,key_resp_6.started,instruction_2_2.stopped,key_resp_6.keys,key_resp_6.rt,key_resp_6.duration,instruction_2_3.started,image_17.started,image_18.started,image_19.started,text_7.started,sound_5.started,key_resp_7.started,instruction_2_3.stopped,key_resp_7.keys,key_resp_7.rt,key_resp_7.duration,instruction_2_4.started,image_20.started,image_21.started,image_22.started,text_8.started,sound_6.started,key_resp_8.started,instruction_2_4.stopped,key_resp_8.keys,key_resp_8.rt,key_resp_8.duration,instruction_2_5.started,image_27.started,image_29.started,text_9.started,sound_7.started,image_30.started,key_resp_11.started,instruction_2_5.stopped,key_resp_11.keys,key_resp_11.rt,key_resp_11.duration,Instructions_3.started,image_49.started,key_resp_16.started,Instructions_3.stopped,key_resp_16.keys,key_resp_16.rt,key_resp_16.duration,inter_trial_interval.started,inter_trial_interval.stopped,ISIcode.started,ISIcode.stopped,ISI,type,fixation.started,image_35.started,image_33.started,image_34.started,image_35.stopped,image_33.stopped,image_34.stopped,fixation.stopped,Cue.started,image_38.started,image_36.started,image_37.started,Cue.stopped,Stim.started,image_39.started,image_41.started,image.started,image_2.started,key_resp_2.started,image_39.stopped,Stim.stopped,key_resp_2.keys,key_resp_2.corr,key_resp_2.rt,key_resp_2.duration,Feedback.started,image_42.started,image_3.started,image_43.started,sound_9.started,Feedback.stopped,UpdateAccuracy.started,UpdateAccuracy.stopped,continueStatus.started,key_resp_18.started,continueStatus.stopped,key_resp_18.keys,key_resp_18.rt,key_resp_18.duration,Main_Exp_Instructions.started,key_resp_9.started,Main_Exp_Instructions.stopped,key_resp_9.keys,key_resp_9.rt,key_resp_9.duration,ISIcode_test.started,ISIcode_test.stopped,finish.started,text_3.started,finish.stopped,编号,主试ID,date,expName,psychopyVersion,frameRate,expStart,
,,,,,,,,,,,,,,,,,,,,,,,,,,,,,0.06494625800405629,0.06559252701117657,0.06560997600900009,0.12703079701168463,1.8362101660168264,1.8458162310125772,1.9587383950129151,1.9587383950129151,1.9587383950129151,1.9587383950129151,1.8705608164076695,1.9587383950129151,3.4678900220023934,space,1.5074560279899742,None,,,,,,,,,,,,,,,,,,,,,,,,,,,,,,,,,,,,,,,,,,,,,,,,,,,,,,,,,,,,,,,,,,,,,,,,,,,,,,,,,,,,,,,,,,,,,,,,,,,,,,,,,,,,,,,,,,,,,,,11,11,2024-05-17_17h55.17.787,Flanker,2023.2.2,78.81028188024156,2024-05-17 17h56.13.361500 +0800,
,,,,,,,,,,,,,,,,,,,,,,,,,,,,,,,,,,,,,,,,,,,,,3.4779809399915393,3.5436592120095156,3.5436592120095156,3.5436592120095156,3.5436592120095156,3.4950535282143393,3.5436592120095156,4.464170635008486,z,0.9183199650142342,None,,,,,,,,,,,,,,,,,,,,,,,,,,,,,,,,,,,,,,,,,,,,,,,,,,,,,,,,,,,,,,,,,,,,,,,,,,,,,,,,,,,,,,,,,,,,,,,,,,,,,,,,,,,,11,11,2024-05-17_17h55.17.787,Flanker,2023.2.2,78.81028188024156,2024-05-17 17h56.13.361500 +0800,
,,,,,,,,,,,,,,,,,,,,,,,,,,,,,,,,,,,,,,,,,,,,,,,,,,,,,,,,4.474747030995786,4.59865851799259,4.59865851799259,4.59865851799259,4.59865851799259,4.488495700195198,4.59865851799259,5.066474893013947,m,0.4624068789999001,None,,,,,,,,,,,,,,,,,,,,,,,,,,,,,,,,,,,,,,,,,,,,,,,,,,,,,,,,,,,,,,,,,,,,,,,,,,,,,,,,,,,,,,,,,,,,,,,,,11,11,2024-05-17_17h55.17.787,Flanker,2023.2.2,78.81028188024156,2024-05-17 17h56.13.361500 +0800,
,,,,,,,,,,,,,,,,,,,,,,,,,,,,,,,,,,,,,,,,,,,,,,,,,,,,,,,,,,,,,,,,,,,5.076629959017737,5.173008946992923,5.173008946992923,5.173008946992923,5.173008946992923,5.090901395207037,5.173008946992923,5.978493283007992,m,0.8000638950034045,None,,,,,,,,,,,,,,,,,,,,,,,,,,,,,,,,,,,,,,,,,,,,,,,,,,,,,,,,,,,,,,,,,,,,,,,,,,,,,,,,,,,,,,11,11,2024-05-17_17h55.17.787,Flanker,2023.2.2,78.81028188024156,2024-05-17 17h56.13.361500 +0800,
,,,,,,,,,,,,,,,,,,,,,,,,,,,,,,,,,,,,,,,,,,,,,,,,,,,,,,,,,,,,,,,,,,,,,,,,,,,,,,5.987667342007626,6.045256426994456,6.045256426994456,6.045256426994456,6.045256426994456,6.003279673215001,6.045256426994456,6.732622904994059,z,0.6827522929816041,None,,,,,,,,,,,,,,,,,,,,,,,,,,,,,,,,,,,,,,,,,,,,,,,,,,,,,,,,,,,,,,,,,,,,,,,,,,,11,11,2024-05-17_17h55.17.787,Flanker,2023.2.2,78.81028188024156,2024-05-17 17h56.13.361500 +0800,
,,,,,,,,,,,,,,,,,,,,,,,,,,,,,,,,,,,,,,,,,,,,,,,,,,,,,,,,,,,,,,,,,,,,,,,,,,,,,,,,,,,,,,,,,6.742493341007503,6.798035940009868,6.798035940009868,6.798035940009868,6.757230613194405,6.798035940009868,6.798035940009868,7.43392998399213,space,0.6334869049896952,None,,,,,,,,,,,,,,,,,,,,,,,,,,,,,,,,,,,,,,,,,,,,,,,,,,,,,,,,,,,,,,,,11,11,2024-05-17_17h55.17.787,Flanker,2023.2.2,78.81028188024156,2024-05-17 17h56.13.361500 +0800,
img/left_arrow.png,img/right_arrow.png,img/congruent_left_empty.png,img/congruent_left.png,z,congruent,,,,,,0,0,0,0,0,0,0,0,,,,,,,,,8.1123081970145,,,,,,,,,,,,,,,,,,,,,,,,,,,,,,,,,,,,,,,,,,,,,,,,,,,,,,,,,,,,,,,,,,,,,,,,,7.444756279990543,7.521258782013319,7.521258782013319,8.068180525995558,space,0.5442111800075509,None,8.089800587011268,8.890220150002278,8.890235233004205,8.89085693800007,1.498997995991984,exercise,8.891645052004606,8.913979459000984,8.913979459000984,8.913979459000984,10.431011544016656,10.431011544016656,10.431011544016656,10.402377010002965,10.402407966990722,10.431011544016656,10.431011544016656,10.431011544016656,11.411142685014056,11.411158385017188,12.363929723011097,12.363929723011097,12.363929723011097,12.363929723011097,12.363929723011097,12.474539677990833,12.960822626017034,z,1,0.5925476050178986,None,12.961419427010696,13.741997748991707,13.741997748991707,13.741997748991707,13.664387302828255,17.973791994008934,17.973819842998637,17.975242051004898,,,,,,,,,,,,,,,,,,11,11,2024-05-17_17h55.17.787,Flanker,2023.2.2,78.81028188024156,2024-05-17 17h56.13.361500 +0800,
img/left_arrow.png,img/right_arrow.png,img/congruent_right_empty.png,img/congruent_right.png,m,congruent,,,,,,0,0,0,0,0,1,1,1,,,,,,,,,17.99898580700392,,,,,,,,,,,,,,,,,,,,,,,,,,,,,,,,,,,,,,,,,,,,,,,,,,,,,,,,,,,,,,,,,,,,,,,,,,,,,,,,17.97610504401382,18.787232019996736,18.78725277999183,18.790629310009535,1.4869739478957915,exercise,18.791140445013298,18.81539743000758,18.81539743000758,18.81539743000758,20.31662635001703,20.31662635001703,20.31662635001703,20.293562131992076,20.293629569991026,20.31662635001703,20.31662635001703,20.31662635001703,21.297771281009773,21.29820676500094,22.673765935003757,22.673765935003757,22.673765935003757,22.673765935003757,22.673765935003757,22.77409634401556,23.278203013993334,m,1,0.600815434998367,None,23.278754785016645,24.41682155500166,24.41682155500166,24.41682155500166,24.410032055783088,28.288131751003675,28.288244132010732,28.292368446011096,,,,,,,,,,,,,,,,,,11,11,2024-05-17_17h55.17.787,Flanker,2023.2.2,78.81028188024156,2024-05-17 17h56.13.361500 +0800,
img/left_arrow.png,img/right_arrow.png,img/incongruent_right_empty.png,img/incongruent_right.png,m,incongruent,,,,,,0,0,0,0,0,2,2,2,,,,,,,,,28.31865700299386,,,,,,,,,,,,,,,,,,,,,,,,,,,,,,,,,,,,,,,,,,,,,,,,,,,,,,,,,,,,,,,,,,,,,,,,,,,,,,,,28.29282641899772,29.097048005001852,29.097082608001074,29.097846616990864,1.4539078156312626,exercise,29.098261320003076,29.123996868991526,29.123996868991526,29.123996868991526,30.601411942014238,30.601411942014238,30.601411942014238,30.57244729201193,30.572639746009372,30.601411942014238,30.601411942014238,30.601411942014238,31.573601309006335,31.57362568200915,32.932165322999936,32.932165322999936,32.932165322999936,32.932165322999936,32.932165322999936,33.043618797993986,33.58771987000364,m,1,0.6504015579994302,None,33.588484873995185,34.79923634199076,34.79923634199076,34.79923634199076,34.7050966546929,38.59025236600428,38.59036073900643,38.59392927499721,,,,,,,,,,,,,,,,,,11,11,2024-05-17_17h55.17.787,Flanker,2023.2.2,78.81028188024156,2024-05-17 17h56.13.361500 +0800,
img/left_arrow.png,img/right_arrow.png,img/incongruent_left_empty.png,img/incongruent_left.png,z,incongruent,,,,,,0,0,0,0,0,3,3,3,,,,,,,,,38.62696431201766,,,,,,,,,,,,,,,,,,,,,,,,,,,,,,,,,,,,,,,,,,,,,,,,,,,,,,,,,,,,,,,,,,,,,,,,,,,,,,,,38.59437455001171,39.400846478994936,39.400950606999686,39.40210010600276,1.0100200400801604,exercise,39.40302847899147,39.42541350799729,39.42541350799729,39.42541350799729,40.459415858989814,40.459415858989814,40.459415858989814,40.43341335700825,40.43344352999702,40.459415858989814,40.459415858989814,40.459415858989814,41.43919264699798,41.43928758701077,42.84025515799294,42.84025515799294,42.84025515799294,42.84025515799294,42.84025515799294,42.94764884299366,43.57526406800025,z,1,0.7208995249820873,None,43.57592249699519,44.694985050009564,44.694985050009564,44.694985050009564,44.68113115158049,48.585851558018476,48.58588799499557,48.5878870190063,,,,,,,,,,,,,,,,,,11,11,2024-05-17_17h55.17.787,Flanker,2023.2.2,78.81028188024156,2024-05-17 17h56.13.361500 +0800,
,,,,,,,,,,,0,0,0,0,,,,,,,,,,,,,,,,,,,,,,,,,,,,,,,,,,,,,,,,,,,,,,,,,,,,,,,,,,,,,,,,,,,,,,,,,,,,,,,,,,,,,,,,,,,,,,,,,,,,,,,,,,,,,,,,,,,,,,,,,,,,,,,,,,,,48.58832722401712,48.63013850399875,49.34978285501711,space,0.7020903000084218,None,,,,,,,,,,,,11,11,2024-05-17_17h55.17.787,Flanker,2023.2.2,78.81028188024156,2024-05-17 17h56.13.361500 +0800,
,,,,,,,,,,,,,,,,,,,,,,,,,,,,,,,,,,,,,,,,,,,,,,,,,,,,,,,,,,,,,,,,,,,,,,,,,,,,,,,,,,,,,,,,,,,,,,,,,,,,,,,,,,,,,,,,,,,,,,,,,,,,,,,,,,,,,,,,,,,,,,,,,,,,,,,,49.36053599001025,49.42402249100269,49.949656356009655,space,0.5153443860181142,None,,,,,,11,11,2024-05-17_17h55.17.787,Flanker,2023.2.2,78.81028188024156,2024-05-17 17h56.13.361500 +0800,
img/left_arrow.png,img/right_arrow.png,img/congruent_left_empty.png,img/congruent_left.png,z,congruent,PNblock1.xlsx,,,,,,,,,,,,,0,0,0,0,0,0,0,0,50.001858656993136,,,,,,,,,,,,,,,,,,,,,,,,,,,,,,,,,,,,,,,,,,,,,,,,,,,,,,,,,,,,,,,,,,,,,,,,,,,,,,,,49.97691741201561,50.77243732800707,,,1.0891783567134268,formal,50.7762930720055,50.799976804002654,50.799976804002654,50.799976804002654,51.91247484899941,51.91247484899941,51.91247484899941,51.88615058900905,51.88618411900825,51.91247484899941,51.91247484899941,51.91247484899941,52.893953548016725,52.89397689100588,54.24960548701347,54.24960548701347,54.24960548701347,54.24960548701347,54.24960548701347,54.35456363699632,54.728691780008376,z,1,0.4759747560019605,None,,,,,,,,,,,,,,,,,,,,,50.77254327200353,50.77564539501327,,,,11,11,2024-05-17_17h55.17.787,Flanker,2023.2.2,78.81028188024156,2024-05-17 17h56.13.361500 +0800,
img/left_arrow.png,img/right_arrow.png,img/incongruent_right_empty.png,img/incongruent_right.png,m,incongruent,PNblock1.xlsx,,,,,,,,,,,,,0,0,0,0,0,1,1,1,54.76088272201014,,,,,,,,,,,,,,,,,,,,,,,,,,,,,,,,,,,,,,,,,,,,,,,,,,,,,,,,,,,,,,,,,,,,,,,,,,,,,,,,54.73175417701714,55.54282478400273,,,1.24749498997996,formal,55.5437437419896,55.56736590299988,55.56736590299988,55.56736590299988,56.841211235005176,56.841211235005176,56.841211235005176,56.81301987200277,56.813050450000446,56.841211235005176,56.841211235005176,56.841211235005176,57.816842797008576,57.8169123409898,59.0757338530093,59.0757338530093,59.0757338530093,59.0757338530093,59.0757338530093,59.181006697006524,59.606914313015295,m,1,0.513480530004017,None,,,,,,,,,,,,,,,,,,,,,55.542838241002755,55.54330761401798,,,,11,11,2024-05-17_17h55.17.787,Flanker,2023.2.2,78.81028188024156,2024-05-17 17h56.13.361500 +0800,
,,,,,,PNblock1.xlsx,,,,,,,,,,,,,0,0,0,0,,,,,,,,,,,,,,,,,,,,,,,,,,,,,,,,,,,,,,,,,,,,,,,,,,,,,,,,,,,,,,,,,,,,,,,,,,,,,,,,,,,,,,,,,,,,,,,,,,,,,,,,,,,,,,,,,,,,,,,,,,,,,,,,,,,,,,,,,,,,,11,11,2024-05-17_17h55.17.787,Flanker,2023.2.2,78.81028188024156,2024-05-17 17h56.13.361500 +0800,
img/left_arrow.png,img/right_arrow.png,img/congruent_left_empty.png,img/congruent_left.png,z,congruent,PNblock3.xlsx,,,,,,,,,,,,,0,1,1,2,0,0,0,0,59.64138543501031,,,,,,,,,,,,,,,,,,,,,,,,,,,,,,,,,,,,,,,,,,,,,,,,,,,,,,,,,,,,,,,,,,,,,,,,,,,,,,,,59.6169176310068,60.41789155700826,,,1.1012024048096192,formal,60.42127677501412,60.44563619600376,60.44563619600376,60.44563619600376,61.575231868017,61.575231868017,61.575231868017,61.54871285599074,61.548741706996225,61.575231868017,61.575231868017,61.575231868017,62.5612331579905,62.56127710500732,63.86569914399297,63.86569914399297,63.86569914399297,63.86569914399297,63.86569914399297,63.9716351510142,64.3048448000045,z,1,0.43281028399360366,None,,,,,,,,,,,,,,,,,,,,,60.4179746019945,60.41952488600509,,,,11,11,2024-05-17_17h55.17.787,Flanker,2023.2.2,78.81028188024156,2024-05-17 17h56.13.361500 +0800,
img/left_arrow.png,img/right_arrow.png,img/incongruent_left_empty.png,img/incongruent_left.png,z,incongruent,PNblock3.xlsx,,,,,,,,,,,,,0,1,1,2,0,1,1,1,64.32946392300073,,,,,,,,,,,,,,,,,,,,,,,,,,,,,,,,,,,,,,,,,,,,,,,,,,,,,,,,,,,,,,,,,,,,,,,,,,,,,,,,64.30606066601467,65.10863205199712,,,1.1362725450901803,formal,65.10983087599743,65.13663001099485,65.13663001099485,65.13663001099485,66.28612448400236,66.28612448400236,66.28612448400236,66.26017028899514,66.2601949130185,66.28612448400236,66.28612448400236,66.28612448400236,67.2652434130141,67.26535803099978,68.52385321201291,68.52385321201291,68.52385321201291,68.52385321201291,68.52385321201291,68.63082616901374,69.07111300801625,z,1,0.5308236230048351,None,,,,,,,,,,,,,,,,,,,,,65.10865046799881,65.1092998420063,,,,11,11,2024-05-17_17h55.17.787,Flanker,2023.2.2,78.81028188024156,2024-05-17 17h56.13.361500 +0800,
img/left_arrow.png,img/right_arrow.png,img/congruent_right_empty.png,img/congruent_right.png,m,congruent,PNblock3.xlsx,,,,,,,,,,,,,0,1,1,2,0,2,2,2,69.0943550360098,,,,,,,,,,,,,,,,,,,,,,,,,,,,,,,,,,,,,,,,,,,,,,,,,,,,,,,,,,,,,,,,,,,,,,,,,,,,,,,,69.07180666999193,69.87824662899948,,,1.4779559118236474,formal,69.87942985401605,69.90935034299036,69.90935034299036,69.90935034299036,71.4043870360183,71.4043870360183,71.4043870360183,71.37826227300684,71.37829210801283,71.4043870360183,71.4043870360183,71.4043870360183,72.3807373070158,72.38081440201495,73.65611648900085,73.65611648900085,73.65611648900085,73.65611648900085,73.65611648900085,73.76024081799551,74.0544312990096,m,1,0.39338902800227515,None,,,,,,,,,,,,,,,,,,,,,69.87826549299643,69.87885325201205,,,,11,11,2024-05-17_17h55.17.787,Flanker,2023.2.2,78.81028188024156,2024-05-17 17h56.13.361500 +0800,
,,,,,,PNblock3.xlsx,,,,,,,,,,,,,0,1,1,2,,,,,,,,,,,,,,,,,,,,,,,,,,,,,,,,,,,,,,,,,,,,,,,,,,,,,,,,,,,,,,,,,,,,,,,,,,,,,,,,,,,,,,,,,,,,,,,,,,,,,,,,,,,,,,,,,,,,,,,,,,,,,,,,,,,,,,,,,,,,,11,11,2024-05-17_17h55.17.787,Flanker,2023.2.2,78.81028188024156,2024-05-17 17h56.13.361500 +0800,
img/left_arrow.png,img/right_arrow.png,img/congruent_left_empty.png,img/congruent_left.png,z,congruent,PNblock4.xlsx,,,,,,,,,,,,,0,2,2,3,0,0,0,0,74.08683667899459,,,,,,,,,,,,,,,,,,,,,,,,,,,,,,,,,,,,,,,,,,,,,,,,,,,,,,,,,,,,,,,,,,,,,,,,,,,,,,,,74.06374487400171,74.86355366100906,,,1.4258517034068137,formal,74.86593105399515,74.89046639599837,74.89046639599837,74.89046639599837,76.32816429701052,76.32816429701052,76.32816429701052,76.306420117995,76.30645648401696,76.32816429701052,76.32816429701052,76.32816429701052,77.30844808201073,77.30846361201839,78.54252631799318,78.54252631799318,78.54252631799318,78.54252631799318,78.54252631799318,78.64939445699565,78.97153103799792,z,1,0.41542237901012413,None,,,,,,,,,,,,,,,,,,,,,74.86362838299829,74.865470173012,,,,11,11,2024-05-17_17h55.17.787,Flanker,2023.2.2,78.81028188024156,2024-05-17 17h56.13.361500 +0800,
img/left_arrow.png,img/right_arrow.png,img/congruent_right_empty.png,img/congruent_right.png,m,congruent,PNblock4.xlsx,,,,,,,,,,,,,0,2,2,3,0,1,1,1,78.99555852200137,,,,,,,,,,,,,,,,,,,,,,,,,,,,,,,,,,,,,,,,,,,,,,,,,,,,,,,,,,,,,,,,,,,,,,,,,,,,,,,,78.97243543999502,79.77421725599561,,,1.0390781563126252,formal,79.77545748100965,79.80192395299673,79.80192395299673,79.80192395299673,80.86149912601104,80.86149912601104,80.86149912601104,80.83738009701483,80.83740859001409,80.86149912601104,80.86149912601104,80.86149912601104,81.84128357001464,81.8412993090169,83.08326781200594,83.08326781200594,83.08326781200594,83.08326781200594,83.08326781200594,83.19279120399733,83.70612162299221,z,0,0.6061869240074884,None,,,,,,,,,,,,,,,,,,,,,79.7742392049986,79.77488360999268,,,,11,11,2024-05-17_17h55.17.787,Flanker,2023.2.2,78.81028188024156,2024-05-17 17h56.13.361500 +0800,
img/left_arrow.png,img/right_arrow.png,img/incongruent_left_empty.png,img/incongruent_left.png,z,incongruent,PNblock4.xlsx,,,,,,,,,,,,,0,2,2,3,0,2,2,2,83.72419014500338,,,,,,,,,,,,,,,,,,,,,,,,,,,,,,,,,,,,,,,,,,,,,,,,,,,,,,,,,,,,,,,,,,,,,,,,,,,,,,,,83.70670965500176,84.51377680699807,,,1.3216432865731462,formal,84.51597406499786,84.53817196999444,84.53817196999444,84.53817196999444,85.87503952800762,85.87503952800762,85.87503952800762,85.85192938099499,85.85195739299525,85.87503952800762,85.87503952800762,85.87503952800762,86.86618996300967,86.8662545499974,88.1470899929991,88.1470899929991,88.1470899929991,88.1470899929991,88.1470899929991,88.2535988019954,88.65493459900608,z,1,0.49736317901988514,None,,,,,,,,,,,,,,,,,,,,,84.51386815399746,84.51551759499125,,,,11,11,2024-05-17_17h55.17.787,Flanker,2023.2.2,78.81028188024156,2024-05-17 17h56.13.361500 +0800,
,,,,,,PNblock4.xlsx,,,,,,,,,,,,,0,2,2,3,,,,,,,,,,,,,,,,,,,,,,,,,,,,,,,,,,,,,,,,,,,,,,,,,,,,,,,,,,,,,,,,,,,,,,,,,,,,,,,,,,,,,,,,,,,,,,,,,,,,,,,,,,,,,,,,,,,,,,,,,,,,,,,,,,,,,,,,,,,,,11,11,2024-05-17_17h55.17.787,Flanker,2023.2.2,78.81028188024156,2024-05-17 17h56.13.361500 +0800,
img/left_arrow.png,img/right_arrow.png,img/congruent_right_empty.png,img/congruent_right.png,m,congruent,PNblock7.xlsx,,,,,,,,,,,,,0,3,3,6,0,0,0,0,88.69074953600648,,,,,,,,,,,,,,,,,,,,,,,,,,,,,,,,,,,,,,,,,,,,,,,,,,,,,,,,,,,,,,,,,,,,,,,,,,,,,,,,88.6648907920171,89.45769414701499,,,1.1382765531062122,formal,89.45872761501232,89.48171631500009,89.48171631500009,89.48171631500009,90.6356105520099,90.6356105520099,90.6356105520099,90.61060664101387,90.61063378799008,90.6356105520099,90.6356105520099,90.6356105520099,91.62107034999644,91.62109150699689,92.86977609599126,92.86977609599126,92.86977609599126,92.86977609599126,92.86977609599126,92.98741673401673,93.20495267899241,z,0,0.32212422898737714,None,,,,,,,,,,,,,,,,,,,,,89.45771119301207,89.4583170840051,,,,11,11,2024-05-17_17h55.17.787,Flanker,2023.2.2,78.81028188024156,2024-05-17 17h56.13.361500 +0800,
img/left_arrow.png,img/right_arrow.png,img/incongruent_right_empty.png,img/incongruent_right.png,m,incongruent,PNblock7.xlsx,,,,,,,,,,,,,0,3,3,6,0,1,1,1,93.23094277500059,,,,,,,,,,,,,,,,,,,,,,,,,,,,,,,,,,,,,,,,,,,,,,,,,,,,,,,,,,,,,,,,,,,,,,,,,,,,,,,,93.20573184100795,94.0207783599908,,,1.0701402805611222,formal,94.02170701901196,94.05369325799984,94.05369325799984,94.05369325799984,95.14196747800452,95.14196747800452,95.14196747800452,95.11874478700338,95.11877299900516,95.14196747800452,95.14196747800452,95.14196747800452,96.12634366299608,96.12636557000224,97.35606034501689,97.35606034501689,97.35606034501689,97.35606034501689,97.35606034501689,97.45608222199371,106.13396527001169,None,0,,,,,,,,,,,,,,,,,,,,,,,94.02079740801128,94.02129610200063,,,,11,11,2024-05-17_17h55.17.787,Flanker,2023.2.2,78.81028188024156,2024-05-17 17h56.13.361500 +0800,
,,,,,,PNblock7.xlsx,,,,,,,,,,,,,0,3,3,6,,,,,,,,,,,,,,,,,,,,,,,,,,,,,,,,,,,,,,,,,,,,,,,,,,,,,,,,,,,,,,,,,,,,,,,,,,,,,,,,,,,,,,,,,,,,,,,,,,,,,,,,,,,,,,,,,,,,,,,,,,,,,,,,,,,,,,,,,,,,,11,11,2024-05-17_17h55.17.787,Flanker,2023.2.2,78.81028188024156,2024-05-17 17h56.13.361500 +0800,
img/left_arrow.png,img/right_arrow.png,img/congruent_left_empty.png,img/congruent_left.png,z,congruent,PNblock5.xlsx,,,,,,,,,,,,,0,4,4,4,0,0,0,0,106.17924030299764,,,,,,,,,,,,,,,,,,,,,,,,,,,,,,,,,,,,,,,,,,,,,,,,,,,,,,,,,,,,,,,,,,,,,,,,,,,,,,,,106.1511900619953,106.9237616469909,,,1.3587174348697395,formal,106.92521233300795,106.95243819599273,106.95243819599273,106.95243819599273,108.33248627799912,108.33248627799912,108.33248627799912,108.3050016160123,108.30503201001557,108.33248627799912,108.33248627799912,108.33248627799912,109.31784252700163,109.31787778201397,110.85249132101308,110.85249132101308,110.85249132101308,110.85249132101308,110.85249132101308,110.96673927901429,119.31717893999303,None,0,,,,,,,,,,,,,,,,,,,,,,,106.92377832799684,106.92454118901514,,,,11,11,2024-05-17_17h55.17.787,Flanker,2023.2.2,78.81028188024156,2024-05-17 17h56.13.361500 +0800,
img/left_arrow.png,img/right_arrow.png,img/congruent_left_empty.png,img/congruent_left.png,z,congruent,PNblock5.xlsx,,,,,,,,,,,,,0,4,4,4,0,1,1,1,119.35004073401797,,,,,,,,,,,,,,,,,,,,,,,,,,,,,,,,,,,,,,,,,,,,,,,,,,,,,,,,,,,,,,,,,,,,,,,,,,,,,,,,119.3188986320165,120.10886884399224,,,1.1803607214428857,formal,120.11021143299877,120.14038270100718,120.14038270100718,120.14038270100718,121.33979413899942,121.33979413899942,121.33979413899942,121.31181514501804,121.31183876900468,121.33979413899942,121.33979413899942,121.33979413899942,122.31802534201415,122.31813070600037,123.85924866001005,123.85924866001005,123.85924866001005,123.85924866001005,123.85924866001005,123.97222410401446,132.32053997501498,None,0,,,,,,,,,,,,,,,,,,,,,,,120.1088852660032,120.10961282299832,,,,11,11,2024-05-17_17h55.17.787,Flanker,2023.2.2,78.81028188024156,2024-05-17 17h56.13.361500 +0800,
img/left_arrow.png,img/right_arrow.png,img/congruent_right_empty.png,img/congruent_right.png,m,congruent,PNblock5.xlsx,,,,,,,,,,,,,0,4,4,4,0,2,2,2,132.35886482600472,,,,,,,,,,,,,,,,,,,,,,,,,,,,,,,,,,,,,,,,,,,,,,,,,,,,,,,,,,,,,,,,,,,,,,,,,,,,,,,,132.322463790013,133.12086566799553,,,1.3857715430861721,formal,133.12288646301022,133.15775336901424,133.15775336901424,133.15775336901424,134.57342791301198,134.57342791301198,134.57342791301198,134.54285773800802,134.54289068901562,134.57342791301198,134.57342791301198,134.57342791301198,135.5538628390059,135.5539443299931,137.12340724800015,137.12340724800015,137.12340724800015,137.12340724800015,137.12340724800015,137.23759362701094,145.5517522660084,None,0,,,,,,,,,,,,,,,,,,,,,,,133.12089853800717,133.1215919390088,,,,11,11,2024-05-17_17h55.17.787,Flanker,2023.2.2,78.81028188024156,2024-05-17 17h56.13.361500 +0800,
img/left_arrow.png,img/right_arrow.png,img/incongruent_left_empty.png,img/incongruent_left.png,z,incongruent,PNblock5.xlsx,,,,,,,,,,,,,0,4,4,4,0,3,3,3,145.57595905399648,,,,,,,,,,,,,,,,,,,,,,,,,,,,,,,,,,,,,,,,,,,,,,,,,,,,,,,,,,,,,,,,,,,,,,,,,,,,,,,,145.5532828120049,146.3553329159913,,,1.1933867735470942,formal,146.3566025629989,146.37953397099045,146.37953397099045,146.37953397099045,147.59822935101693,147.59822935101693,147.59822935101693,147.56817468701047,147.56820933701238,147.59822935101693,147.59822935101693,147.59822935101693,148.58060980399023,148.58071834399016,150.13614134400268,150.13614134400268,150.13614134400268,150.13614134400268,150.13614134400268,150.24806392099708,158.57612055900972,None,0,,,,,,,,,,,,,,,,,,,,,,,146.3553580690059,146.35598957401817,,,,11,11,2024-05-17_17h55.17.787,Flanker,2023.2.2,78.81028188024156,2024-05-17 17h56.13.361500 +0800,
,,,,,,PNblock5.xlsx,,,,,,,,,,,,,0,4,4,4,,,,,,,,,,,,,,,,,,,,,,,,,,,,,,,,,,,,,,,,,,,,,,,,,,,,,,,,,,,,,,,,,,,,,,,,,,,,,,,,,,,,,,,,,,,,,,,,,,,,,,,,,,,,,,,,,,,,,,,,,,,,,,,,,,,,,,,,,,,,,11,11,2024-05-17_17h55.17.787,Flanker,2023.2.2,78.81028188024156,2024-05-17 17h56.13.361500 +0800,
img/left_arrow.png,img/right_arrow.png,img/congruent_right_empty.png,img/congruent_right.png,m,congruent,PNblock6.xlsx,,,,,,,,,,,,,0,5,5,5,0,0,0,0,158.61913466401165,,,,,,,,,,,,,,,,,,,,,,,,,,,,,,,,,,,,,,,,,,,,,,,,,,,,,,,,,,,,,,,,,,,,,,,,,,,,,,,,158.59603855400928,159.37282921100268,,,1.1823647294589177,formal,159.3763005429937,159.40082414099015,159.40082414099015,159.40082414099015,160.61148523399606,160.61148523399606,160.61148523399606,160.58506270399084,160.58509835699806,160.61148523399606,160.61148523399606,160.61148523399606,161.58676313300384,161.58696097001666,163.13670560499304,163.13670560499304,163.13670560499304,163.13670560499304,163.13670560499304,163.25232347901328,171.59013707601116,None,0,,,,,,,,,,,,,,,,,,,,,,,159.37293866300024,159.37545393500477,,,,11,11,2024-05-17_17h55.17.787,Flanker,2023.2.2,78.81028188024156,2024-05-17 17h56.13.361500 +0800,
img/left_arrow.png,img/right_arrow.png,img/congruent_right_empty.png,img/congruent_right.png,m,congruent,PNblock6.xlsx,,,,,,,,,,,,,0,5,5,5,0,1,1,1,171.61748376200558,,,,,,,,,,,,,,,,,,,,,,,,,,,,,,,,,,,,,,,,,,,,,,,,,,,,,,,,,,,,,,,,,,,,,,,,,,,,,,,,171.59277931699762,172.3948646990175,,,1.1983967935871742,formal,172.39730319401133,172.42285953601822,172.42285953601822,172.42285953601822,173.663338318991,173.663338318991,173.663338318991,173.62035104099778,173.6203878140077,173.663338318991,173.663338318991,173.663338318991,174.62954916001763,174.62957496999297,176.21105802699458,176.21105802699458,176.21105802699458,176.21105802699458,176.21105802699458,176.318976465991,184.62171034899075,None,0,,,,,,,,,,,,,,,,,,,,,,,172.39496290599345,172.39656014501816,,,,11,11,2024-05-17_17h55.17.787,Flanker,2023.2.2,78.81028188024156,2024-05-17 17h56.13.361500 +0800,
img/left_arrow.png,img/right_arrow.png,img/incongruent_left_empty.png,img/incongruent_left.png,z,incongruent,PNblock6.xlsx,,,,,,,,,,,,,0,5,5,5,0,2,2,2,184.65014509001048,,,,,,,,,,,,,,,,,,,,,,,,,,,,,,,,,,,,,,,,,,,,,,,,,,,,,,,,,,,,,,,,,,,,,,,,,,,,,,,,184.62389841899858,185.43220705899876,,,1.0781563126252505,formal,185.43631560201175,185.4603715109988,185.4603715109988,185.4603715109988,186.55359466801747,186.55359466801747,186.55359466801747,186.52838023300865,186.5284170320083,186.55359466801747,186.55359466801747,186.55359466801747,187.54434134700568,187.54438581800787,189.13806175001082,189.13806175001082,189.13806175001082,189.13806175001082,189.13806175001082,189.26120061200345,197.53722577099688,None,0,,,,,,,,,,,,,,,,,,,,,,,185.43326718101162,185.43461406600545,,,,11,11,2024-05-17_17h55.17.787,Flanker,2023.2.2,78.81028188024156,2024-05-17 17h56.13.361500 +0800,
,,,,,,PNblock6.xlsx,,,,,,,,,,,,,0,5,5,5,,,,,,,,,,,,,,,,,,,,,,,,,,,,,,,,,,,,,,,,,,,,,,,,,,,,,,,,,,,,,,,,,,,,,,,,,,,,,,,,,,,,,,,,,,,,,,,,,,,,,,,,,,,,,,,,,,,,,,,,,,,,,,,,,,,,,,,,,,,,,11,11,2024-05-17_17h55.17.787,Flanker,2023.2.2,78.81028188024156,2024-05-17 17h56.13.361500 +0800,
img/left_arrow.png,img/right_arrow.png,img/congruent_right_empty.png,img/congruent_right.png,m,congruent,PNblock2.xlsx,,,,,,,,,,,,,0,6,6,1,0,0,0,0,197.58206527199945,,,,,,,,,,,,,,,,,,,,,,,,,,,,,,,,,,,,,,,,,,,,,,,,,,,,,,,,,,,,,,,,,,,,,,,,,,,,,,,,197.55295357000432,198.340322500997,,,1.4919839679358717,formal,198.34164444901398,198.36733078199904,198.36733078199904,198.36733078199904,199.88542001400492,199.88542001400492,199.88542001400492,199.8566358120006,199.85672638600226,199.88542001400492,199.88542001400492,199.88542001400492,200.86789013500675,200.8680047139933,202.52856078901095,202.52856078901095,202.52856078901095,202.52856078901095,202.52856078901095,202.63490993101732,210.86312929500127,None,0,,,,,,,,,,,,,,,,,,,,,,,198.34034859901294,198.34102706701378,,,,11,11,2024-05-17_17h55.17.787,Flanker,2023.2.2,78.81028188024156,2024-05-17 17h56.13.361500 +0800,
img/left_arrow.png,img/right_arrow.png,img/congruent_left_empty.png,img/congruent_left.png,z,congruent,PNblock2.xlsx,,,,,,,,,,,,,0,6,6,1,0,1,1,1,210.89951343400753,,,,,,,,,,,,,,,,,,,,,,,,,,,,,,,,,,,,,,,,,,,,,,,,,,,,,,,,,,,,,,,,,,,,,,,,,,,,,,,,210.8643549910048,211.66032096600975,,,1.280561122244489,formal,211.66157708401443,211.690071377001,211.690071377001,211.690071377001,213.00123342100414,213.00123342100414,213.00123342100414,212.97218741101096,212.97235725299106,213.00123342100414,213.00123342100414,213.00123342100414,213.98419564499636,213.98428097300348,215.59676378499717,215.59676378499717,215.59676378499717,215.59676378499717,215.59676378499717,215.70736245199805,223.97954749001656,None,0,,,,,,,,,,,,,,,,,,,,,,,211.66034617699916,211.66099450399633,,,,11,11,2024-05-17_17h55.17.787,Flanker,2023.2.2,78.81028188024156,2024-05-17 17h56.13.361500 +0800,
img/left_arrow.png,img/right_arrow.png,img/incongruent_right_empty.png,img/incongruent_right.png,m,incongruent,PNblock2.xlsx,,,,,,,,,,,,,0,6,6,1,0,2,2,2,224.00933174000238,,,,,,,,,,,,,,,,,,,,,,,,,,,,,,,,,,,,,,,,,,,,,,,,,,,,,,,,,,,,,,,,,,,,,,,,,,,,,,,,223.98169728199719,224.7765367650136,,,1.2715430861723447,formal,224.77827891599736,224.80830439500278,224.80830439500278,224.80830439500278,226.10357835699688,226.10357835699688,226.10357835699688,226.06981017900398,226.06987130999914,226.10357835699688,226.10357835699688,226.10357835699688,227.07918900399818,227.0792897270003,228.71608503200696,228.71608503200696,228.71608503200696,228.71608503200696,228.71608503200696,228.81700467300834,237.08209445301327,None,0,,,,,,,,,,,,,,,,,,,,,,,224.77656556700822,224.7773424590123,,,,11,11,2024-05-17_17h55.17.787,Flanker,2023.2.2,78.81028188024156,2024-05-17 17h56.13.361500 +0800,
,,,,,,PNblock2.xlsx,,,,,,,,,,,,,0,6,6,1,,,,,,,,,,,,,,,,,,,,,,,,,,,,,,,,,,,,,,,,,,,,,,,,,,,,,,,,,,,,,,,,,,,,,,,,,,,,,,,,,,,,,,,,,,,,,,,,,,,,,,,,,,,,,,,,,,,,,,,,,,,,,,,,,,,,,,,,,,,,,11,11,2024-05-17_17h55.17.787,Flanker,2023.2.2,78.81028188024156,2024-05-17 17h56.13.361500 +0800,
,,,,,,,,,,,,,,,,,,,,,,,,,,,,,,,,,,,,,,,,,,,,,,,,,,,,,,,,,,,,,,,,,,,,,,,,,,,,,,,,,,,,,,,,,,,,,,,,,,,,,,,,,,,,,,,,,,,,,,,,,,,,,,,,,,,,,,,,,,,,,,,,,,,,,,,,,,,,,,,,237.08332208599313,237.1077204119938,240.5795594789961,,,,,,,,
