left_arrow,right_arrow,empty,middle,corrAns,condition,blockfile,dummy_trial.thisRepN,dummy_trial.thisTrialN,dummy_trial.thisN,dummy_trial.thisIndex,block.thisRepN,block.thisTrialN,block.thisN,block.thisIndex,trials.thisRepN,trials.thisTrialN,trials.thisN,trials.thisIndex,test_trials.thisRepN,test_trials.thisTrialN,test_trials.thisN,test_trials.thisIndex,blockn.thisRepN,blockn.thisTrialN,blockn.thisN,blockn.thisIndex,thisRow.t,notes,JS_code.started,JS_code.stopped,instruction_1.started,wecomle_resp.started,instruction_1.stopped,instruction_2.started,text.started,image_8.started,image_9.started,image_10.started,sound_2.started,key_resp_10.started,instruction_2.stopped,key_resp_10.keys,key_resp_10.rt,key_resp_10.duration,instruction_2_1.started,image_11.started,image_12.started,image_13.started,text_5.started,sound_3.started,key_resp_5.started,instruction_2_1.stopped,key_resp_5.keys,key_resp_5.rt,key_resp_5.duration,instruction_2_2.started,image_14.started,image_15.started,image_16.started,text_6.started,sound_4.started,key_resp_6.started,instruction_2_2.stopped,key_resp_6.keys,key_resp_6.rt,key_resp_6.duration,instruction_2_3.started,image_17.started,image_18.started,image_19.started,text_7.started,sound_5.started,key_resp_7.started,instruction_2_3.stopped,key_resp_7.keys,key_resp_7.rt,key_resp_7.duration,instruction_2_4.started,image_20.started,image_21.started,image_22.started,text_8.started,sound_6.started,key_resp_8.started,instruction_2_4.stopped,key_resp_8.keys,key_resp_8.rt,key_resp_8.duration,instruction_2_5.started,image_27.started,image_29.started,text_9.started,sound_7.started,image_30.started,key_resp_11.started,instruction_2_5.stopped,key_resp_11.keys,key_resp_11.rt,key_resp_11.duration,Instructions_3.started,image_49.started,key_resp_16.started,Instructions_3.stopped,key_resp_16.keys,key_resp_16.rt,key_resp_16.duration,inter_trial_interval.started,inter_trial_interval.stopped,ISIcode.started,ISIcode.stopped,ISI,type,fixation.started,image_35.started,image_33.started,image_34.started,image_35.stopped,image_33.stopped,image_34.stopped,fixation.stopped,Cue.started,image_38.started,image_36.started,image_37.started,Cue.stopped,Stim.started,image_39.started,image_41.started,image.started,image_2.started,key_resp_2.started,image_39.stopped,Stim.stopped,key_resp_2.keys,key_resp_2.corr,key_resp_2.rt,key_resp_2.duration,Feedback.started,image_42.started,image_3.started,image_43.started,sound_9.started,Feedback.stopped,UpdateAccuracy.started,UpdateAccuracy.stopped,continueStatus.started,key_resp_18.started,continueStatus.stopped,key_resp_18.keys,key_resp_18.rt,key_resp_18.duration,Main_Exp_Instructions.started,key_resp_9.started,Main_Exp_Instructions.stopped,key_resp_9.keys,key_resp_9.rt,key_resp_9.duration,ISIcode_test.started,ISIcode_test.stopped,finish.started,text_3.started,finish.stopped,编号,主试ID,date,expName,psychopyVersion,frameRate,expStart,
,,,,,,,,,,,,,,,,,,,,,,,,,,,,,0.07441638599266298,0.0776939140050672,0.07783145798020996,0.1407904799852986,5.6273835510073695,5.637714588985546,5.711402115004603,5.711402115004603,5.711402115004603,5.711402115004603,5.6563081769971175,5.711402115004603,7.428220800997224,space,1.6971897339972202,None,,,,,,,,,,,,,,,,,,,,,,,,,,,,,,,,,,,,,,,,,,,,,,,,,,,,,,,,,,,,,,,,,,,,,,,,,,,,,,,,,,,,,,,,,,,,,,,,,,,,,,,,,,,,,,,,,,,,,,,11,11,2024-05-17_17h46.22.157,Flanker,2023.2.2,75.95387624628417,2024-05-17 17h47.13.525066 +0800,
,,,,,,,,,,,,,,,,,,,,,,,,,,,,,,,,,,,,,,,,,,,,,7.438252094987547,7.573362314986298,7.573362314986298,7.573362314986298,7.573362314986298,7.457896109328916,7.573362314986298,8.698301219003042,z,1.1099254179862328,None,,,,,,,,,,,,,,,,,,,,,,,,,,,,,,,,,,,,,,,,,,,,,,,,,,,,,,,,,,,,,,,,,,,,,,,,,,,,,,,,,,,,,,,,,,,,,,,,,,,,,,,,,,,,11,11,2024-05-17_17h46.22.157,Flanker,2023.2.2,75.95387624628417,2024-05-17 17h47.13.525066 +0800,
,,,,,,,,,,,,,,,,,,,,,,,,,,,,,,,,,,,,,,,,,,,,,,,,,,,,,,,,8.708410727005685,8.83382506199996,8.83382506199996,8.83382506199996,8.83382506199996,8.727882566316598,8.83382506199996,10.523717815987766,m,1.6834079539985396,None,,,,,,,,,,,,,,,,,,,,,,,,,,,,,,,,,,,,,,,,,,,,,,,,,,,,,,,,,,,,,,,,,,,,,,,,,,,,,,,,,,,,,,,,,,,,,,,,,11,11,2024-05-17_17h46.22.157,Flanker,2023.2.2,75.95387624628417,2024-05-17 17h47.13.525066 +0800,
,,,,,,,,,,,,,,,,,,,,,,,,,,,,,,,,,,,,,,,,,,,,,,,,,,,,,,,,,,,,,,,,,,,10.533435488992836,10.666954765008995,10.666954765008995,10.666954765008995,10.666954765008995,10.551729431325416,10.666954765008995,12.003523144987412,m,1.3307229789788835,None,,,,,,,,,,,,,,,,,,,,,,,,,,,,,,,,,,,,,,,,,,,,,,,,,,,,,,,,,,,,,,,,,,,,,,,,,,,,,,,,,,,,,,11,11,2024-05-17_17h46.22.157,Flanker,2023.2.2,75.95387624628417,2024-05-17 17h47.13.525066 +0800,
,,,,,,,,,,,,,,,,,,,,,,,,,,,,,,,,,,,,,,,,,,,,,,,,,,,,,,,,,,,,,,,,,,,,,,,,,,,,,,12.01333378898562,12.158335473999614,12.158335473999614,12.158335473999614,12.158335473999614,12.032380056342422,12.158335473999614,12.692539799987571,z,0.5317743920022622,None,,,,,,,,,,,,,,,,,,,,,,,,,,,,,,,,,,,,,,,,,,,,,,,,,,,,,,,,,,,,,,,,,,,,,,,,,,,11,11,2024-05-17_17h46.22.157,Flanker,2023.2.2,75.95387624628417,2024-05-17 17h47.13.525066 +0800,
,,,,,,,,,,,,,,,,,,,,,,,,,,,,,,,,,,,,,,,,,,,,,,,,,,,,,,,,,,,,,,,,,,,,,,,,,,,,,,,,,,,,,,,,,12.701393213006668,12.84903405699879,12.84903405699879,12.84903405699879,12.72130652331592,12.84903405699879,12.84903405699879,13.867977486981545,space,1.013670722983079,None,,,,,,,,,,,,,,,,,,,,,,,,,,,,,,,,,,,,,,,,,,,,,,,,,,,,,,,,,,,,,,,,11,11,2024-05-17_17h46.22.157,Flanker,2023.2.2,75.95387624628417,2024-05-17 17h47.13.525066 +0800,
img/left_arrow.png,img/right_arrow.png,img/congruent_left_empty.png,img/congruent_left.png,z,congruent,,,,,,0,0,0,0,0,0,0,0,,,,,,,,,14.775592418998713,,,,,,,,,,,,,,,,,,,,,,,,,,,,,,,,,,,,,,,,,,,,,,,,,,,,,,,,,,,,,,,,,,,,,,,,,13.87866516399663,13.947525377996499,13.947525377996499,14.650599187996704,space,0.6853775689960457,None,14.672754066006746,15.466522053990047,15.466612533986336,15.468516127002658,1.3937875751503006,exercise,15.469975424988661,15.531934117985656,15.531934117985656,15.531934117985656,17.053213682986097,17.053213682986097,17.053213682986097,16.912880068004597,16.912918597983662,17.053213682986097,17.053213682986097,17.053213682986097,17.920167183998274,17.92020462299115,18.892754942993633,18.892754942993633,18.892754942993633,18.892754942993633,18.892754942993633,19.012811961001717,19.48620397099876,z,1,0.5771559470158536,None,19.487583134003216,20.30642470798921,20.30642470798921,20.30642470798921,20.23312286598957,24.50303997998708,24.503170487005264,24.504944735002937,,,,,,,,,,,,,,,,,,11,11,2024-05-17_17h46.22.157,Flanker,2023.2.2,75.95387624628417,2024-05-17 17h47.13.525066 +0800,
img/left_arrow.png,img/right_arrow.png,img/congruent_right_empty.png,img/congruent_right.png,m,congruent,,,,,,0,0,0,0,0,1,1,1,,,,,,,,,24.539260110002942,,,,,,,,,,,,,,,,,,,,,,,,,,,,,,,,,,,,,,,,,,,,,,,,,,,,,,,,,,,,,,,,,,,,,,,,,,,,,,,,24.505950127000688,25.31147347498336,25.311489599000197,25.312187283008825,1.1993987975951905,exercise,25.312817363999784,25.338908948993776,25.338908948993776,25.338908948993776,26.557157753995853,26.557157753995853,26.557157753995853,26.53240095099318,26.532491558988113,26.557157753995853,26.557157753995853,26.557157753995853,27.54562897098367,27.5456651019922,28.99847330598277,28.99847330598277,28.99847330598277,28.99847330598277,28.99847330598277,29.10824417200638,29.748205479001626,m,1,0.7331238639890216,None,29.748678671981907,30.901185681985226,30.901185681985226,30.901185681985226,30.897225850995163,34.749167392990785,34.749317465990316,34.7512927140051,,,,,,,,,,,,,,,,,,11,11,2024-05-17_17h46.22.157,Flanker,2023.2.2,75.95387624628417,2024-05-17 17h47.13.525066 +0800,
img/left_arrow.png,img/right_arrow.png,img/incongruent_right_empty.png,img/incongruent_right.png,m,incongruent,,,,,,0,0,0,0,0,2,2,2,,,,,,,,,34.777321770001436,,,,,,,,,,,,,,,,,,,,,,,,,,,,,,,,,,,,,,,,,,,,,,,,,,,,,,,,,,,,,,,,,,,,,,,,,,,,,,,,34.75194598399685,35.55740614698152,35.55742167899734,35.558040803007316,1.3156312625250501,exercise,35.558609625993995,35.58559438798693,35.58559438798693,35.58559438798693,36.91351586498786,36.91351586498786,36.91351586498786,36.88795286900131,36.888021630991716,36.91351586498786,36.91351586498786,36.91351586498786,37.89871147100348,37.89878270900226,39.39858464000281,39.39858464000281,39.39858464000281,39.39858464000281,39.39858464000281,39.505212160001975,40.208779218985,m,1,0.7941005500033498,None,40.209181651007384,41.42935492898687,41.42935492898687,41.42935492898687,41.40777485900907,45.21695400198223,45.21742345698294,45.21854243098642,,,,,,,,,,,,,,,,,,11,11,2024-05-17_17h46.22.157,Flanker,2023.2.2,75.95387624628417,2024-05-17 17h47.13.525066 +0800,
img/left_arrow.png,img/right_arrow.png,img/incongruent_left_empty.png,img/incongruent_left.png,z,incongruent,,,,,,0,0,0,0,0,3,3,3,,,,,,,,,45.24502602100256,,,,,,,,,,,,,,,,,,,,,,,,,,,,,,,,,,,,,,,,,,,,,,,,,,,,,,,,,,,,,,,,,,,,,,,,,,,,,,,,45.21956007799599,46.022966307995375,46.022991365985945,46.023811096994905,1.4779559118236474,exercise,46.024405075993855,46.04859150099219,46.04859150099219,46.04859150099219,47.5495550709893,47.5495550709893,47.5495550709893,47.523130405985285,47.52318632300012,47.5495550709893,47.5495550709893,47.5495550709893,48.533947074989555,48.5340513830015,50.044734222989064,50.044734222989064,50.044734222989064,50.044734222989064,50.044734222989064,50.157407239981694,50.842544654995436,z,1,0.780888019973645,None,50.84300600798451,52.018212622002466,52.018212622002466,52.018212622002466,52.00533454665371,55.848314843984554,55.84838919900358,55.85018291400047,,,,,,,,,,,,,,,,,,11,11,2024-05-17_17h46.22.157,Flanker,2023.2.2,75.95387624628417,2024-05-17 17h47.13.525066 +0800,
,,,,,,,,,,,0,0,0,0,,,,,,,,,,,,,,,,,,,,,,,,,,,,,,,,,,,,,,,,,,,,,,,,,,,,,,,,,,,,,,,,,,,,,,,,,,,,,,,,,,,,,,,,,,,,,,,,,,,,,,,,,,,,,,,,,,,,,,,,,,,,,,,,,,,,55.85029526500148,55.907179942994844,56.89099092700053,space,0.97169132399722,None,,,,,,,,,,,,11,11,2024-05-17_17h46.22.157,Flanker,2023.2.2,75.95387624628417,2024-05-17 17h47.13.525066 +0800,
,,,,,,,,,,,,,,,,,,,,,,,,,,,,,,,,,,,,,,,,,,,,,,,,,,,,,,,,,,,,,,,,,,,,,,,,,,,,,,,,,,,,,,,,,,,,,,,,,,,,,,,,,,,,,,,,,,,,,,,,,,,,,,,,,,,,,,,,,,,,,,,,,,,,,,,,56.90096551098395,56.95896933999029,59.50530372999492,space,2.538176231988473,None,,,,,,11,11,2024-05-17_17h46.22.157,Flanker,2023.2.2,75.95387624628417,2024-05-17 17h47.13.525066 +0800,
img/left_arrow.png,img/right_arrow.png,img/congruent_left_empty.png,img/congruent_left.png,z,congruent,PNblock5.xlsx,,,,,,,,,,,,,0,0,0,4,0,0,0,0,59.570699242991395,,,,,,,,,,,,,,,,,,,,,,,,,,,,,,,,,,,,,,,,,,,,,,,,,,,,,,,,,,,,,,,,,,,,,,,,,,,,,,,,59.54296022100607,60.32755785898189,,,1.027054108216433,formal,60.32897692799452,60.3568794769817,60.3568794769817,60.3568794769817,61.40882533200784,61.40882533200784,61.40882533200784,61.38231686898507,61.38235595598235,61.40882533200784,61.40882533200784,61.40882533200784,62.387383306981064,62.387404149980284,63.90728912898339,63.90728912898339,63.90728912898339,63.90728912898339,63.90728912898339,64.01800121698761,64.4298021249997,z,1,0.520335367997177,None,,,,,,,,,,,,,,,,,,,,,60.32758268198813,60.3283159849816,,,,11,11,2024-05-17_17h46.22.157,Flanker,2023.2.2,75.95387624628417,2024-05-17 17h47.13.525066 +0800,
img/left_arrow.png,img/right_arrow.png,img/congruent_left_empty.png,img/congruent_left.png,z,congruent,PNblock5.xlsx,,,,,,,,,,,,,0,0,0,4,0,1,1,1,64.45539368898608,,,,,,,,,,,,,,,,,,,,,,,,,,,,,,,,,,,,,,,,,,,,,,,,,,,,,,,,,,,,,,,,,,,,,,,,,,,,,,,,64.43079479798325,65.23711345699849,,,1.1783567134268538,formal,65.23809750098735,65.26299429999199,65.26299429999199,65.26299429999199,66.45299248199444,66.45299248199444,66.45299248199444,66.42708038899582,66.42710940199322,66.45299248199444,66.45299248199444,66.45299248199444,67.43157679098658,67.43167879499379,68.7778689499828,68.7778689499828,68.7778689499828,68.7778689499828,68.7778689499828,68.8820895429817,69.2459697299928,z,1,0.4613988140190486,None,,,,,,,,,,,,,,,,,,,,,65.237130117981,65.23758094399818,,,,11,11,2024-05-17_17h46.22.157,Flanker,2023.2.2,75.95387624628417,2024-05-17 17h47.13.525066 +0800,
img/left_arrow.png,img/right_arrow.png,img/congruent_right_empty.png,img/congruent_right.png,m,congruent,PNblock5.xlsx,,,,,,,,,,,,,0,0,0,4,0,2,2,2,69.28285239599063,,,,,,,,,,,,,,,,,,,,,,,,,,,,,,,,,,,,,,,,,,,,,,,,,,,,,,,,,,,,,,,,,,,,,,,,,,,,,,,,69.24675586898229,70.04932804699638,,,1.3276553106212425,formal,70.05197856298764,70.0788326059992,70.0788326059992,70.0788326059992,71.41048410898657,71.41048410898657,71.41048410898657,71.38966386098764,71.3896889409807,71.41048410898657,71.41048410898657,71.41048410898657,72.3965043539938,72.39652132199262,73.67612048599403,73.67612048599403,73.67612048599403,73.67612048599403,73.67612048599403,73.78400369698647,74.17138530200464,m,1,0.48310332201072015,None,,,,,,,,,,,,,,,,,,,,,70.04943041098886,70.05138030898524,,,,11,11,2024-05-17_17h46.22.157,Flanker,2023.2.2,75.95387624628417,2024-05-17 17h47.13.525066 +0800,
img/left_arrow.png,img/right_arrow.png,img/incongruent_left_empty.png,img/incongruent_left.png,z,incongruent,PNblock5.xlsx,,,,,,,,,,,,,0,0,0,4,0,3,3,3,74.19843832799233,,,,,,,,,,,,,,,,,,,,,,,,,,,,,,,,,,,,,,,,,,,,,,,,,,,,,,,,,,,,,,,,,,,,,,,,,,,,,,,,74.17197558298358,74.98131518898299,,,1.1523046092184368,formal,74.98410827299813,75.00810568398447,75.00810568398447,75.00810568398447,76.17830957600381,76.17830957600381,76.17830957600381,76.15568828899995,76.15571698200074,76.17830957600381,76.17830957600381,76.17830957600381,77.17064042499987,77.17073527400498,78.40630765500828,78.40630765500828,78.40630765500828,78.40630765500828,78.40630765500828,78.51710374598042,78.81186549100676,z,1,0.40410948399221525,None,,,,,,,,,,,,,,,,,,,,,74.9817029539845,74.98332888499135,,,,11,11,2024-05-17_17h46.22.157,Flanker,2023.2.2,75.95387624628417,2024-05-17 17h47.13.525066 +0800,
,,,,,,PNblock5.xlsx,,,,,,,,,,,,,0,0,0,4,,,,,,,,,,,,,,,,,,,,,,,,,,,,,,,,,,,,,,,,,,,,,,,,,,,,,,,,,,,,,,,,,,,,,,,,,,,,,,,,,,,,,,,,,,,,,,,,,,,,,,,,,,,,,,,,,,,,,,,,,,,,,,,,,,,,,,,,,,,,,11,11,2024-05-17_17h46.22.157,Flanker,2023.2.2,75.95387624628417,2024-05-17 17h47.13.525066 +0800,
img/left_arrow.png,img/right_arrow.png,img/congruent_left_empty.png,img/congruent_left.png,z,congruent,PNblock1.xlsx,,,,,,,,,,,,,0,1,1,0,0,0,0,0,78.84848959598457,,,,,,,,,,,,,,,,,,,,,,,,,,,,,,,,,,,,,,,,,,,,,,,,,,,,,,,,,,,,,,,,,,,,,,,,,,,,,,,,78.82637937099207,79.62130802098545,,,1.3366733466933867,formal,79.6245149129827,79.64666768000461,79.64666768000461,79.64666768000461,81.00477170999511,81.00477170999511,81.00477170999511,80.98292633300298,80.9829960920033,81.00477170999511,81.00477170999511,81.00477170999511,81.99530260800384,81.99537999799941,83.22892396899988,83.22892396899988,83.22892396899988,83.22892396899988,83.22892396899988,83.33095589000732,83.70601463198545,z,1,0.4696876469824929,None,,,,,,,,,,,,,,,,,,,,,79.62139422199107,79.62367842998356,,,,11,11,2024-05-17_17h46.22.157,Flanker,2023.2.2,75.95387624628417,2024-05-17 17h47.13.525066 +0800,
img/left_arrow.png,img/right_arrow.png,img/incongruent_right_empty.png,img/incongruent_right.png,m,incongruent,PNblock1.xlsx,,,,,,,,,,,,,0,1,1,0,0,1,1,1,83.72964468199643,,,,,,,,,,,,,,,,,,,,,,,,,,,,,,,,,,,,,,,,,,,,,,,,,,,,,,,,,,,,,,,,,,,,,,,,,,,,,,,,83.7067906660086,84.51603809199878,,,1.1032064128256514,formal,84.51895117599634,84.54299166498822,84.54299166498822,84.54299166498822,85.66414850598085,85.66414850598085,85.66414850598085,85.64156133099459,85.64159193899832,85.66414850598085,85.66414850598085,85.66414850598085,86.64845721999882,86.64853222400416,87.87280011799885,87.87280011799885,87.87280011799885,87.87280011799885,87.87280011799885,87.97333004299435,88.59049772299477,m,1,0.7014960419910494,None,,,,,,,,,,,,,,,,,,,,,84.51679183999659,84.5182666789915,,,,11,11,2024-05-17_17h46.22.157,Flanker,2023.2.2,75.95387624628417,2024-05-17 17h47.13.525066 +0800,
None,None,None,None,None,None,PNblock1.xlsx,,,,,,,,,,,,,0,1,1,0,0,2,2,2,88.60825747298077,,,,,,,,,,,,,,,,,,,,,,,,,,,,,,,,,,,,,,,,,,,,,,,,,,,,,,,,,,,,,,,,,,,,,,,,,,,,,,,,88.5911217549874,89.40036099599092,,,1.0100200400801604,formal,89.4023476059956,89.42559185498976,89.42559185498976,89.42559185498976,90.45522243098821,90.45522243098821,90.45522243098821,90.42882928499603,90.42885082299472,90.45522243098821,90.45522243098821,90.45522243098821,91.43508528798702,91.43518903199583,92.12512589499238,92.12512589499238,92.12512589499238,92.12512589499238,92.12512589499238,92.2266859250085,95.83590541299782,m,0,3.6991992899856996,None,,,,,,,,,,,,,,,,,,,,,89.40051961498102,89.40168997898581,,,,11,11,2024-05-17_17h46.22.157,Flanker,2023.2.2,75.95387624628417,2024-05-17 17h47.13.525066 +0800,
None,None,None,None,None,None,PNblock1.xlsx,,,,,,,,,,,,,0,1,1,0,0,3,3,3,95.8677223319828,,,,,,,,,,,,,,,,,,,,,,,,,,,,,,,,,,,,,,,,,,,,,,,,,,,,,,,,,,,,,,,,,,,,,,,,,,,,,,,,95.83703795998008,96.64148117799778,,,1.0581162324649298,formal,96.64271109199035,96.66682248699362,96.66682248699362,96.66682248699362,97.74066446500365,97.74066446500365,97.74066446500365,97.7133359949803,97.7133646440052,97.74066446500365,97.74066446500365,97.74066446500365,98.72208013298223,98.72209905798081,98.73784166498808,98.81448598499992,98.73784166498808,98.73784166498808,98.73784166498808,98.83863066200865,100.77965629799291,m,0,2.0382121649745386,None,,,,,,,,,,,,,,,,,,,,,96.64150327199604,96.64225179498317,,,,11,11,2024-05-17_17h46.22.157,Flanker,2023.2.2,75.95387624628417,2024-05-17 17h47.13.525066 +0800,
,,,,,,PNblock1.xlsx,,,,,,,,,,,,,0,1,1,0,,,,,,,,,,,,,,,,,,,,,,,,,,,,,,,,,,,,,,,,,,,,,,,,,,,,,,,,,,,,,,,,,,,,,,,,,,,,,,,,,,,,,,,,,,,,,,,,,,,,,,,,,,,,,,,,,,,,,,,,,,,,,,,,,,,,,,,,,,,,,11,11,2024-05-17_17h46.22.157,Flanker,2023.2.2,75.95387624628417,2024-05-17 17h47.13.525066 +0800,
img/left_arrow.png,img/right_arrow.png,img/congruent_left_empty.png,img/congruent_left.png,z,congruent,PNblock4.xlsx,,,,,,,,,,,,,0,2,2,3,0,0,0,0,100.82393612500164,,,,,,,,,,,,,,,,,,,,,,,,,,,,,,,,,,,,,,,,,,,,,,,,,,,,,,,,,,,,,,,,,,,,,,,,,,,,,,,,100.79596489598043,101.58355349599151,,,1.0551102204408818,formal,101.58712029800517,101.61097506398801,101.61097506398801,101.61097506398801,102.67752038798062,102.67752038798062,102.67752038798062,102.65163506098907,102.65166756598046,102.67752038798062,102.67752038798062,102.67752038798062,103.6558604699967,103.65588970799581,104.49780099399504,104.49780099399504,104.49780099399504,104.49780099399504,104.49780099399504,104.60474603399052,105.28928327400354,z,1,0.7897321459895466,None,,,,,,,,,,,,,,,,,,,,,101.58364138699835,101.5855049189995,,,,11,11,2024-05-17_17h46.22.157,Flanker,2023.2.2,75.95387624628417,2024-05-17 17h47.13.525066 +0800,
img/left_arrow.png,img/right_arrow.png,img/congruent_right_empty.png,img/congruent_right.png,m,congruent,PNblock4.xlsx,,,,,,,,,,,,,0,2,2,3,0,1,1,1,105.31659225700423,,,,,,,,,,,,,,,,,,,,,,,,,,,,,,,,,,,,,,,,,,,,,,,,,,,,,,,,,,,,,,,,,,,,,,,,,,,,,,,,105.29032700098469,106.0989050649805,,,1.3026052104208417,formal,106.1016920300026,106.12975367798936,106.12975367798936,106.12975367798936,107.4605440129817,107.4605440129817,107.4605440129817,107.43714587198338,107.43716895498801,107.4605440129817,107.4605440129817,107.4605440129817,108.4419060270011,108.44199842400849,109.73377728299238,109.73377728299238,109.73377728299238,109.73377728299238,109.73377728299238,109.8439150939812,110.2362483140023,m,1,0.4967202110274229,None,,,,,,,,,,,,,,,,,,,,,106.09901178398286,106.10110022398294,,,,11,11,2024-05-17_17h46.22.157,Flanker,2023.2.2,75.95387624628417,2024-05-17 17h47.13.525066 +0800,
img/left_arrow.png,img/right_arrow.png,img/incongruent_left_empty.png,img/incongruent_left.png,z,incongruent,PNblock4.xlsx,,,,,,,,,,,,,0,2,2,3,0,2,2,2,110.25902312900871,,,,,,,,,,,,,,,,,,,,,,,,,,,,,,,,,,,,,,,,,,,,,,,,,,,,,,,,,,,,,,,,,,,,,,,,,,,,,,,,110.23682840098627,111.04696849899483,,,1.0100200400801604,formal,111.04903149500024,111.07487837199005,111.07487837199005,111.07487837199005,112.094137631997,112.094137631997,112.094137631997,112.07112765900092,112.07120497798314,112.094137631997,112.094137631997,112.094137631997,113.0812427290075,113.08132681000279,114.31851014198037,114.31851014198037,114.31851014198037,114.31851014198037,114.31851014198037,114.42921794700669,114.86464977398282,z,1,0.5398297700157855,None,,,,,,,,,,,,,,,,,,,,,111.04705323898816,111.04858890999458,,,,11,11,2024-05-17_17h46.22.157,Flanker,2023.2.2,75.95387624628417,2024-05-17 17h47.13.525066 +0800,
None,None,None,None,None,None,PNblock4.xlsx,,,,,,,,,,,,,0,2,2,3,0,3,3,3,114.89064377799514,,,,,,,,,,,,,,,,,,,,,,,,,,,,,,,,,,,,,,,,,,,,,,,,,,,,,,,,,,,,,,,,,,,,,,,,,,,,,,,,114.86554873999557,115.66859458698309,,,1.2675350701402806,formal,115.67104765900876,115.69751335898764,115.69751335898764,115.69751335898764,116.98861412599217,116.98861412599217,116.98861412599217,116.9640851309814,116.96411330098636,116.98861412599217,116.98861412599217,116.98861412599217,117.97820269598742,117.97829148100573,118.64529208099702,118.64529208099702,118.64529208099702,118.64529208099702,118.64529208099702,118.74314725698787,120.32616438600235,z,0,1.6679626750119496,None,,,,,,,,,,,,,,,,,,,,,115.66876223598956,115.66960345499683,,,,11,11,2024-05-17_17h46.22.157,Flanker,2023.2.2,75.95387624628417,2024-05-17 17h47.13.525066 +0800,
,,,,,,PNblock4.xlsx,,,,,,,,,,,,,0,2,2,3,,,,,,,,,,,,,,,,,,,,,,,,,,,,,,,,,,,,,,,,,,,,,,,,,,,,,,,,,,,,,,,,,,,,,,,,,,,,,,,,,,,,,,,,,,,,,,,,,,,,,,,,,,,,,,,,,,,,,,,,,,,,,,,,,,,,,,,,,,,,,11,11,2024-05-17_17h46.22.157,Flanker,2023.2.2,75.95387624628417,2024-05-17 17h47.13.525066 +0800,
img/left_arrow.png,img/right_arrow.png,img/congruent_right_empty.png,img/congruent_right.png,m,congruent,PNblock7.xlsx,,,,,,,,,,,,,0,3,3,6,0,0,0,0,120.36389064899413,,,,,,,,,,,,,,,,,,,,,,,,,,,,,,,,,,,,,,,,,,,,,,,,,,,,,,,,,,,,,,,,,,,,,,,,,,,,,,,,120.34024189898628,121.1304446629947,,,1.371743486973948,formal,121.13341044299887,121.16150466198451,121.16150466198451,121.16150466198451,122.55207483799313,122.55207483799313,122.55207483799313,122.52821979799774,122.52827795699704,122.55207483799313,122.55207483799313,122.55207483799313,123.52970907298732,123.52977349699358,124.28639410500182,124.28639410500182,124.28639410500182,124.28639410500182,124.28639410500182,124.3854106219951,124.84479787599412,m,1,0.5415382249921095,None,,,,,,,,,,,,,,,,,,,,,121.13053563499125,121.13269149698317,,,,11,11,2024-05-17_17h46.22.157,Flanker,2023.2.2,75.95387624628417,2024-05-17 17h47.13.525066 +0800,
img/left_arrow.png,img/right_arrow.png,img/incongruent_right_empty.png,img/incongruent_right.png,m,incongruent,PNblock7.xlsx,,,,,,,,,,,,,0,3,3,6,0,1,1,1,124.86824616300873,,,,,,,,,,,,,,,,,,,,,,,,,,,,,,,,,,,,,,,,,,,,,,,,,,,,,,,,,,,,,,,,,,,,,,,,,,,,,,,,124.8456356409879,125.6490016040043,,,1.4278557114228456,formal,125.6518679090077,125.67462399200303,125.67462399200303,125.67462399200303,127.11801787998411,127.11801787998411,127.11801787998411,127.09440109698335,127.09442238300107,127.11801787998411,127.11801787998411,127.11801787998411,128.10743601399008,128.1074542879942,129.3525141919963,129.3525141919963,129.3525141919963,129.3525141919963,129.3525141919963,129.46186104000662,129.99613511399366,m,1,0.641978081985144,None,,,,,,,,,,,,,,,,,,,,,125.64915185800055,125.65089339300175,,,,11,11,2024-05-17_17h46.22.157,Flanker,2023.2.2,75.95387624628417,2024-05-17 17h47.13.525066 +0800,
None,None,None,None,None,None,PNblock7.xlsx,,,,,,,,,,,,,0,3,3,6,0,2,2,2,130.01988066200283,,,,,,,,,,,,,,,,,,,,,,,,,,,,,,,,,,,,,,,,,,,,,,,,,,,,,,,,,,,,,,,,,,,,,,,,,,,,,,,,129.99680500599789,130.8116095229925,,,1.276553106212425,formal,130.81264613798703,130.8384593130031,130.8384593130031,130.8384593130031,132.1397939909948,132.1397939909948,132.1397939909948,132.11093045698362,132.11095802599448,132.1397939909948,132.1397939909948,132.1397939909948,133.11232468200615,133.1123503340059,133.80326624400914,133.80326624400914,133.80326624400914,133.80326624400914,133.80326624400914,133.89664113899926,135.66893765199347,m,0,1.8590099359862506,None,,,,,,,,,,,,,,,,,,,,,130.81162452700664,130.81209005598794,,,,11,11,2024-05-17_17h46.22.157,Flanker,2023.2.2,75.95387624628417,2024-05-17 17h47.13.525066 +0800,
None,None,None,None,None,None,PNblock7.xlsx,,,,,,,,,,,,,0,3,3,6,0,3,3,3,135.69428409999819,,,,,,,,,,,,,,,,,,,,,,,,,,,,,,,,,,,,,,,,,,,,,,,,,,,,,,,,,,,,,,,,,,,,,,,,,,,,,,,,135.67008385600639,136.48613141899114,,,1.3256513026052104,formal,136.48712517900276,136.51341682099155,136.51341682099155,136.51341682099155,137.85613618200296,137.85613618200296,137.85613618200296,137.8281822919962,137.82821000600234,137.85613618200296,137.85613618200296,137.85613618200296,138.83990718098357,138.84002129198052,138.85716333199525,138.93085183599032,138.85716333199525,138.85716333199525,138.85716333199525,138.956742837996,140.08918211699347,m,0,1.2179689390177373,None,,,,,,,,,,,,,,,,,,,,,136.4861466389848,136.48665649798932,,,,11,11,2024-05-17_17h46.22.157,Flanker,2023.2.2,75.95387624628417,2024-05-17 17h47.13.525066 +0800,
,,,,,,PNblock7.xlsx,,,,,,,,,,,,,0,3,3,6,,,,,,,,,,,,,,,,,,,,,,,,,,,,,,,,,,,,,,,,,,,,,,,,,,,,,,,,,,,,,,,,,,,,,,,,,,,,,,,,,,,,,,,,,,,,,,,,,,,,,,,,,,,,,,,,,,,,,,,,,,,,,,,,,,,,,,,,,,,,,11,11,2024-05-17_17h46.22.157,Flanker,2023.2.2,75.95387624628417,2024-05-17 17h47.13.525066 +0800,
img/left_arrow.png,img/right_arrow.png,img/congruent_right_empty.png,img/congruent_right.png,m,congruent,PNblock6.xlsx,,,,,,,,,,,,,0,4,4,5,0,0,0,0,140.12428938498488,,,,,,,,,,,,,,,,,,,,,,,,,,,,,,,,,,,,,,,,,,,,,,,,,,,,,,,,,,,,,,,,,,,,,,,,,,,,,,,,140.1011149789847,140.89106101699872,,,1.4168336673346693,formal,140.89218234599684,140.91501981799956,140.91501981799956,140.91501981799956,142.35084302999894,142.35084302999894,142.35084302999894,142.32653449499048,142.32656734698685,142.35084302999894,142.35084302999894,142.35084302999894,143.333455126005,143.33359286299674,144.19185779700638,144.19185779700638,144.19185779700638,144.19185779700638,144.19185779700638,144.302938000008,144.84582742798375,m,1,0.6521612060023472,None,,,,,,,,,,,,,,,,,,,,,140.89108394199866,140.8917344759975,,,,11,11,2024-05-17_17h46.22.157,Flanker,2023.2.2,75.95387624628417,2024-05-17 17h47.13.525066 +0800,
img/left_arrow.png,img/right_arrow.png,img/congruent_right_empty.png,img/congruent_right.png,m,congruent,PNblock6.xlsx,,,,,,,,,,,,,0,4,4,5,0,1,1,1,144.87307790698833,,,,,,,,,,,,,,,,,,,,,,,,,,,,,,,,,,,,,,,,,,,,,,,,,,,,,,,,,,,,,,,,,,,,,,,,,,,,,,,,144.8468720469973,145.65984485298395,,,1.280561122244489,formal,145.6607982289861,145.68143345898716,145.68143345898716,145.68143345898716,146.97414636198664,146.97414636198664,146.97414636198664,146.9496641139849,146.94969572799164,146.97414636198664,146.97414636198664,146.97414636198664,147.96139146198402,147.96159084199462,149.2154056839936,149.2154056839936,149.2154056839936,149.2154056839936,149.2154056839936,149.3233290509961,149.76308707799762,m,1,0.5350813020195346,None,,,,,,,,,,,,,,,,,,,,,145.6598687649821,145.66035121798632,,,,11,11,2024-05-17_17h46.22.157,Flanker,2023.2.2,75.95387624628417,2024-05-17 17h47.13.525066 +0800,
img/left_arrow.png,img/right_arrow.png,img/incongruent_left_empty.png,img/incongruent_left.png,z,incongruent,PNblock6.xlsx,,,,,,,,,,,,,0,4,4,5,0,2,2,2,149.79008022500784,,,,,,,,,,,,,,,,,,,,,,,,,,,,,,,,,,,,,,,,,,,,,,,,,,,,,,,,,,,,,,,,,,,,,,,,,,,,,,,,149.7638554389996,150.5644202019903,,,1.1432865731462925,formal,150.56586262199562,150.5900579279987,150.5900579279987,150.5900579279987,151.76039413598482,151.76039413598482,151.76039413598482,151.7364242449985,151.73644533898914,151.76039413598482,151.76039413598482,151.76039413598482,152.74573272300768,152.7457526899816,153.9514946260024,153.9514946260024,153.9514946260024,153.9514946260024,153.9514946260024,154.0603853079956,154.5201091649942,z,1,0.5612816289940383,None,,,,,,,,,,,,,,,,,,,,,150.5644399379962,150.56502546998672,,,,11,11,2024-05-17_17h46.22.157,Flanker,2023.2.2,75.95387624628417,2024-05-17 17h47.13.525066 +0800,
None,None,None,None,None,None,PNblock6.xlsx,,,,,,,,,,,,,0,4,4,5,0,3,3,3,154.54238039100892,,,,,,,,,,,,,,,,,,,,,,,,,,,,,,,,,,,,,,,,,,,,,,,,,,,,,,,,,,,,,,,,,,,,,,,,,,,,,,,,154.52109779499006,155.33169600498513,,,1.1192384769539079,formal,155.3344442769885,155.35726026198245,155.35726026198245,155.35726026198245,156.49458150198916,156.49458150198916,156.49458150198916,156.46742430599988,156.46745268499944,156.49458150198916,156.49458150198916,156.49458150198916,157.47944543298217,157.47954689600738,158.1936278549838,158.1936278549838,158.1936278549838,158.1936278549838,158.1936278549838,158.29076680599246,159.11454776499886,z,0,0.9153368080151267,None,,,,,,,,,,,,,,,,,,,,,155.33177891300875,155.3338168449991,,,,11,11,2024-05-17_17h46.22.157,Flanker,2023.2.2,75.95387624628417,2024-05-17 17h47.13.525066 +0800,
,,,,,,PNblock6.xlsx,,,,,,,,,,,,,0,4,4,5,,,,,,,,,,,,,,,,,,,,,,,,,,,,,,,,,,,,,,,,,,,,,,,,,,,,,,,,,,,,,,,,,,,,,,,,,,,,,,,,,,,,,,,,,,,,,,,,,,,,,,,,,,,,,,,,,,,,,,,,,,,,,,,,,,,,,,,,,,,,,11,11,2024-05-17_17h46.22.157,Flanker,2023.2.2,75.95387624628417,2024-05-17 17h47.13.525066 +0800,
img/left_arrow.png,img/right_arrow.png,img/congruent_right_empty.png,img/congruent_right.png,m,congruent,PNblock2.xlsx,,,,,,,,,,,,,0,5,5,1,0,0,0,0,159.15149997899425,,,,,,,,,,,,,,,,,,,,,,,,,,,,,,,,,,,,,,,,,,,,,,,,,,,,,,,,,,,,,,,,,,,,,,,,,,,,,,,,159.130093802989,159.91888481398928,,,1.214428857715431,formal,159.92248435199144,159.9444691920071,159.9444691920071,159.9444691920071,161.17390150399297,161.17390150399297,161.17390150399297,161.150585055002,161.15060711000115,161.17390150399297,161.17390150399297,161.17390150399297,162.16459410099196,162.1647067029844,162.88133661600295,162.88133661600295,162.88133661600295,162.88133661600295,162.88133661600295,162.98879650098388,163.9115749259945,m,1,1.0137555319815874,None,,,,,,,,,,,,,,,,,,,,,159.91897396199056,159.9218980410078,,,,11,11,2024-05-17_17h46.22.157,Flanker,2023.2.2,75.95387624628417,2024-05-17 17h47.13.525066 +0800,
img/left_arrow.png,img/right_arrow.png,img/congruent_left_empty.png,img/congruent_left.png,z,congruent,PNblock2.xlsx,,,,,,,,,,,,,0,5,5,1,0,1,1,1,163.93573001000914,,,,,,,,,,,,,,,,,,,,,,,,,,,,,,,,,,,,,,,,,,,,,,,,,,,,,,,,,,,,,,,,,,,,,,,,,,,,,,,,163.91267006500857,164.7160294239875,,,1.2745490981963927,formal,164.7184392369818,164.74304794799536,164.74304794799536,164.74304794799536,166.0338689549826,166.0338689549826,166.0338689549826,166.0102614639909,166.01032416598173,166.0338689549826,166.0338689549826,166.0338689549826,167.0248061279999,167.02485457799048,168.32829989600577,168.32829989600577,168.32829989600577,168.32829989600577,168.32829989600577,168.43240533399512,168.78858779199072,z,1,0.45108427200466394,None,,,,,,,,,,,,,,,,,,,,,164.71610922800028,164.71728725900175,,,,11,11,2024-05-17_17h46.22.157,Flanker,2023.2.2,75.95387624628417,2024-05-17 17h47.13.525066 +0800,
img/left_arrow.png,img/right_arrow.png,img/incongruent_right_empty.png,img/incongruent_right.png,m,incongruent,PNblock2.xlsx,,,,,,,,,,,,,0,5,5,1,0,2,2,2,168.81243896798696,,,,,,,,,,,,,,,,,,,,,,,,,,,,,,,,,,,,,,,,,,,,,,,,,,,,,,,,,,,,,,,,,,,,,,,,,,,,,,,,168.78916615099297,169.59199056599755,,,1.4529058116232463,formal,169.5929811259848,169.61768493798445,169.61768493798445,169.61768493798445,171.09529344798648,171.09529344798648,171.09529344798648,171.06734134998987,171.0673729069822,171.09529344798648,171.09529344798648,171.09529344798648,172.07902457300224,172.07918289798545,173.35647096700268,173.35647096700268,173.35647096700268,173.35647096700268,173.35647096700268,173.46507774398196,174.18085544498172,m,1,0.8177540629985742,None,,,,,,,,,,,,,,,,,,,,,169.5920073610032,169.5925275089976,,,,11,11,2024-05-17_17h46.22.157,Flanker,2023.2.2,75.95387624628417,2024-05-17 17h47.13.525066 +0800,
None,None,None,None,None,None,PNblock2.xlsx,,,,,,,,,,,,,0,5,5,1,0,3,3,3,174.20306310098385,,,,,,,,,,,,,,,,,,,,,,,,,,,,,,,,,,,,,,,,,,,,,,,,,,,,,,,,,,,,,,,,,,,,,,,,,,,,,,,,174.18165503800265,174.99496499198722,,,1.4639278557114228,formal,174.99626263199025,175.02708606200758,175.02708606200758,175.02708606200758,176.50548406498274,176.50548406498274,176.50548406498274,176.48087260100874,176.48090272399713,176.50548406498274,176.50548406498274,176.50548406498274,177.4875015959842,177.48752444598358,178.23144069398404,178.23144069398404,178.23144069398404,178.23144069398404,178.23144069398404,178.32671866600867,179.10164036098286,m,0,0.8645080079731997,None,,,,,,,,,,,,,,,,,,,,,174.99498876999132,174.99560272498638,,,,11,11,2024-05-17_17h46.22.157,Flanker,2023.2.2,75.95387624628417,2024-05-17 17h47.13.525066 +0800,
,,,,,,PNblock2.xlsx,,,,,,,,,,,,,0,5,5,1,,,,,,,,,,,,,,,,,,,,,,,,,,,,,,,,,,,,,,,,,,,,,,,,,,,,,,,,,,,,,,,,,,,,,,,,,,,,,,,,,,,,,,,,,,,,,,,,,,,,,,,,,,,,,,,,,,,,,,,,,,,,,,,,,,,,,,,,,,,,,11,11,2024-05-17_17h46.22.157,Flanker,2023.2.2,75.95387624628417,2024-05-17 17h47.13.525066 +0800,
img/left_arrow.png,img/right_arrow.png,img/congruent_left_empty.png,img/congruent_left.png,z,congruent,PNblock3.xlsx,,,,,,,,,,,,,0,6,6,2,0,0,0,0,179.13350971598993,,,,,,,,,,,,,,,,,,,,,,,,,,,,,,,,,,,,,,,,,,,,,,,,,,,,,,,,,,,,,,,,,,,,,,,,,,,,,,,,179.11230861299555,179.90853157799575,,,1.280561122244489,formal,179.90955011200276,179.9338859319978,179.9338859319978,179.9338859319978,181.22835435299203,181.22835435299203,181.22835435299203,181.20577844799845,181.20580511898152,181.22835435299203,181.22835435299203,181.22835435299203,182.22130162498797,182.22132563500782,182.96299441100564,182.96299441100564,182.96299441100564,182.96299441100564,182.96299441100564,183.0708072129928,183.4354871760006,z,1,0.45771960300044157,None,,,,,,,,,,,,,,,,,,,,,179.90855201499653,179.90910962299677,,,,11,11,2024-05-17_17h46.22.157,Flanker,2023.2.2,75.95387624628417,2024-05-17 17h47.13.525066 +0800,
img/left_arrow.png,img/right_arrow.png,img/incongruent_left_empty.png,img/incongruent_left.png,z,incongruent,PNblock3.xlsx,,,,,,,,,,,,,0,6,6,2,0,1,1,1,183.45636687998194,,,,,,,,,,,,,,,,,,,,,,,,,,,,,,,,,,,,,,,,,,,,,,,,,,,,,,,,,,,,,,,,,,,,,,,,,,,,,,,,183.43641963700065,184.24037116600084,,,1.4599198396793587,formal,184.2413660339953,184.263113419991,184.263113419991,184.263113419991,185.73849893998704,185.73849893998704,185.73849893998704,185.71237370398012,185.7124012830027,185.73849893998704,185.73849893998704,185.73849893998704,186.7260796430055,186.72617876098957,187.974754809984,187.974754809984,187.974754809984,187.974754809984,187.974754809984,188.0838352959836,188.60282593898592,z,1,0.6167419819976203,None,,,,,,,,,,,,,,,,,,,,,184.24038750000182,184.24093711498426,,,,11,11,2024-05-17_17h46.22.157,Flanker,2023.2.2,75.95387624628417,2024-05-17 17h47.13.525066 +0800,
img/left_arrow.png,img/right_arrow.png,img/congruent_right_empty.png,img/congruent_right.png,m,congruent,PNblock3.xlsx,,,,,,,,,,,,,0,6,6,2,0,2,2,2,188.62879278199398,,,,,,,,,,,,,,,,,,,,,,,,,,,,,,,,,,,,,,,,,,,,,,,,,,,,,,,,,,,,,,,,,,,,,,,,,,,,,,,,188.60344094299944,189.41088923998177,,,1.2364729458917836,formal,189.41217320098076,189.43766300799325,189.43766300799325,189.43766300799325,190.69086300500203,190.69086300500203,190.69086300500203,190.66395860898774,190.6639878099959,190.69086300500203,190.69086300500203,190.69086300500203,191.6766254779941,191.67664375700406,192.90597575498396,192.90597575498396,192.90597575498396,192.90597575498396,192.90597575498396,193.01506351900753,193.4261831259937,m,1,0.515548146009678,None,,,,,,,,,,,,,,,,,,,,,189.41090417699888,189.41134343398153,,,,11,11,2024-05-17_17h46.22.157,Flanker,2023.2.2,75.95387624628417,2024-05-17 17h47.13.525066 +0800,
None,None,None,None,None,None,PNblock3.xlsx,,,,,,,,,,,,,0,6,6,2,0,3,3,3,193.45270382700255,,,,,,,,,,,,,,,,,,,,,,,,,,,,,,,,,,,,,,,,,,,,,,,,,,,,,,,,,,,,,,,,,,,,,,,,,,,,,,,,193.42690184200183,194.22714983398328,,,1.1212424849699398,formal,194.2291157449945,194.24072616000194,194.24072616000194,194.24072616000194,195.37847981700907,195.37847981700907,195.37847981700907,195.35499374798383,195.35501355398446,195.37847981700907,195.37847981700907,195.37847981700907,196.36429034598405,196.3643853389949,197.140496048989,197.140496048989,197.140496048989,197.140496048989,197.140496048989,197.23720664100256,197.69180609399336,z,0,0.5471981920127291,None,,,,,,,,,,,,,,,,,,,,,194.22724870199454,194.2287011029839,,,,11,11,2024-05-17_17h46.22.157,Flanker,2023.2.2,75.95387624628417,2024-05-17 17h47.13.525066 +0800,
,,,,,,PNblock3.xlsx,,,,,,,,,,,,,0,6,6,2,,,,,,,,,,,,,,,,,,,,,,,,,,,,,,,,,,,,,,,,,,,,,,,,,,,,,,,,,,,,,,,,,,,,,,,,,,,,,,,,,,,,,,,,,,,,,,,,,,,,,,,,,,,,,,,,,,,,,,,,,,,,,,,,,,,,,,,,,,,,,11,11,2024-05-17_17h46.22.157,Flanker,2023.2.2,75.95387624628417,2024-05-17 17h47.13.525066 +0800,
,,,,,,,,,,,,,,,,,,,,,,,,,,,,,,,,,,,,,,,,,,,,,,,,,,,,,,,,,,,,,,,,,,,,,,,,,,,,,,,,,,,,,,,,,,,,,,,,,,,,,,,,,,,,,,,,,,,,,,,,,,,,,,,,,,,,,,,,,,,,,,,,,,,,,,,,,,,,,,,,197.6923409680021,197.71505774898105,201.19783089798875,,,,,,,,
